# XDI/1.0 Demeter/0.9.26
# Beamline.name: BM08-LISA
# Column.1: energy eV
# Column.2: mutrans
# Column.3: murefer
# Element.edge: K
# Element.symbol: Cu
# Facility.name: ESRF
# Facility.xray_source: Bending magnet
# Mono.d_spacing: 3.134692
# Mono.name: Si(111)
# Mono.notes: LNT cooled
# Sample.formula: Cu2O
# Sample.name: Copper(I) oxide, Cuprous oxide
# Sample.reference: Cu metal foil
# Scan.start_time: 2023-01-17T17:51:02
# ///
# room temperature
#------------------------
#  energy  mutrans  murefer
  8829.6166       0.46623843       0.57390638
  8839.5492       0.46211204       0.57115914
  8849.4036       0.45800040       0.56829777
  8859.2435       0.45389028       0.56552930
  8869.1617       0.44982130       0.56264891
  8879.1104       0.44575715       0.55981815
  8889.0471       0.44175656       0.55688266
  8899.1592       0.43775458       0.55402126
  8909.1523       0.43380824       0.55109546
  8919.1120       0.42998471       0.54815822
  8929.0414       0.42631761       0.54507988
  8938.9530       0.42289955       0.54253733
  8948.9373       0.41991455       0.54021441
  8958.9099       0.41798719       0.53931160
  8959.4238       0.41790701       0.53938625
  8959.9178       0.41786265       0.53943213
  8960.3774       0.41783905       0.53944870
  8960.9148       0.41781035       0.53976751
  8961.4297       0.41778127       0.53985622
  8961.9128       0.41776937       0.53989986
  8962.4564       0.41778261       0.54019807
  8962.9084       0.41779257       0.54030065
  8963.3960       0.41784549       0.54042988
  8963.9130       0.41789928       0.54074407
  8964.3634       0.41796162       0.54097763
  8964.8987       0.41804948       0.54122894
  8965.4098       0.41815710       0.54161233
  8965.8751       0.41829613       0.54198708
  8966.4158       0.41845820       0.54225674
  8966.9141       0.41863020       0.54281016
  8967.3926       0.41885154       0.54331745
  8967.9351       0.41911156       0.54384353
  8968.4267       0.41942681       0.54466564
  8968.9148       0.41984104       0.54539621
  8969.4386       0.42030055       0.54716722
  8969.8939       0.42068769       0.54857911
  8970.4030       0.42105915       0.54938049
  8970.9217       0.42157841       0.55026807
  8971.3876       0.42222753       0.55206500
  8971.9307       0.42304861       0.55412741
  8972.4348       0.42403689       0.55665276
  8972.9451       0.42523143       0.56002775
  8973.4901       0.42664925       0.56375000
  8973.9580       0.42831897       0.56826776
  8974.4450       0.43036012       0.57413598
  8974.9737       0.43285055       0.58127589
  8975.4323       0.43601170       0.59074320
  8975.9429       0.44001693       0.60411296
  8976.4648       0.44523664       0.62309406
  8976.9339       0.45208818       0.65248758
  8977.4786       0.46141813       0.70143435
  8977.9868       0.47490842       0.78547596
  8978.4994       0.49703854       0.92055233
  8979.0477       0.53123624        1.0686248
  8979.5145       0.58624885        1.1895643
  8980.0082       0.66847641        1.2638248
  8980.5393       0.76368610        1.3028660
  8981.0011       0.83121989        1.3174499
  8981.5158       0.84277189        1.3137309
  8982.0393       0.81631619        1.3019631
  8982.5133       0.78272919        1.2941090
  8983.0647       0.76044847        1.3004679
  8983.5710       0.75559963        1.3235111
  8984.0643       0.76513344        1.3567142
  8984.6177       0.78329587        1.3911870
  8985.0902       0.80518657        1.4228019
  8985.6228       0.82857691        1.4544962
  8986.1485       0.85010036        1.4873672
  8986.6135       0.87252515        1.5257866
  8987.1419       0.89679981        1.5709823
  8987.6539       0.92231464        1.6236280
  8988.1268       0.94771689        1.6838237
  8988.6815       0.97326870        1.7513975
  8989.1745        1.0003134        1.8238487
  8989.6694        1.0304326        1.8982896
  8990.2138        1.0640445        1.9703685
  8990.6783        1.1004489        2.0378193
  8991.1785        1.1384217        2.0990359
  8991.7023        1.1751306        2.1519921
  8992.1600        1.2059337        2.1940460
  8992.6804        1.2283292        2.2215513
  8993.1921        1.2438482        2.2328624
  8993.6578        1.2553501        2.2288819
  8994.2028        1.2646488        2.2135324
  8994.7016        1.2718701        2.1913080
  8995.1858        1.2754550        2.1664315
  8995.7309        1.2733549        2.1422322
  8996.1951        1.2646875        2.1208697
  8996.6785        1.2507218        2.1035100
  8997.2030        1.2340517        2.0913576
  8997.6560        1.2166951        2.0853341
  8998.1526        1.2003283        2.0865387
  8998.6738        1.1851268        2.0961158
  8999.1287        1.1708105        2.1141423
  8999.6543        1.1571154        2.1399761
  9000.1660        1.1446732        2.1720718
  9000.6385        1.1339818        2.2066746
  9001.1747        1.1256572        2.2386715
  9001.6587        1.1196379        2.2631533
  9002.1227        1.1159090        2.2764684
  9002.6547        1.1144080        2.2774625
  9003.1231        1.1148673        2.2668048
  9003.6038        1.1168408        2.2476846
  9004.1378        1.1197675        2.2236480
  9004.6047        1.1231744        2.1975009
  9005.1126        1.1266449        2.1720395
  9005.6502        1.1301300        2.1493864
  9006.1216        1.1337511        2.1298921
  9006.6515        1.1377292        2.1133370
  9007.1597        1.1421627        2.0980284
  9007.6216        1.1470029        2.0830887
  9008.1508        1.1520079        2.0677752
  9008.6355        1.1567888        2.0532040
  9009.1055        1.1608406        2.0400597
  9010.2037        1.1650533        2.0221834
  9011.3371        1.1627843        2.0200634
  9012.4760        1.1583246        2.0272351
  9013.5908        1.1556771        2.0393484
  9014.7024        1.1515954        2.0577355
  9015.8824        1.1410220        2.0839137
  9017.1197        1.1238267        2.1176416
  9018.3495        1.1064872        2.1525584
  9019.5997        1.0938255        2.1857099
  9020.8179        1.0852532        2.2164404
  9022.1152        1.0773026        2.2477563
  9023.4226        1.0706921        2.2729010
  9024.7243        1.0658399        2.2862169
  9026.0201        1.0627712        2.2802707
  9027.3708        1.0608183        2.2541431
  9028.7754        1.0601629        2.2165292
  9030.1506        1.0613326        2.1775578
  9031.5666        1.0653488        2.1411694
  9032.9822        1.0721816        2.1153831
  9034.4835        1.0805931        2.0993273
  9035.9431        1.0885578        2.0930774
  9037.4163        1.0963932        2.0951220
  9038.9270        1.1044038        2.1040629
  9040.4901        1.1131902        2.1143757
  9042.0309        1.1227406        2.1194792
  9043.5793        1.1319638        2.1168202
  9045.1872        1.1386308        2.1128553
  9046.8116        1.1403754        2.1163429
  9048.4454        1.1363021        2.1331399
  9050.1318        1.1299219        2.1448148
  9051.8445        1.1246038        2.1499074
  9053.5330        1.1218848        2.1505321
  9055.2188        1.1207519        2.1556541
  9056.9758        1.1198459        2.1696978
  9058.7847        1.1178839        2.1884012
  9060.5325        1.1151079        2.2035734
  9062.3022        1.1126420        2.2150400
  9064.1195        1.1119341        2.2255407
  9065.9606        1.1127293        2.2383851
  9067.8086        1.1145149        2.2560758
  9069.6610        1.1168766        2.2722403
  9071.5540        1.1190654        2.2798752
  9073.4265        1.1207478        2.2738670
  9075.3557        1.1219158        2.2541979
  9077.2724        1.1223613        2.2265373
  9079.2184        1.1222660        2.1959956
  9081.1936        1.1216232        2.1697075
  9083.1786        1.1200990        2.1469756
  9085.1502        1.1169134        2.1280745
  9087.2045        1.1116839        2.1175429
  9089.1816        1.1047573        2.1092604
  9091.2520        1.0969309        2.0917983
  9093.2771        1.0892435        2.0685656
  9095.2720        1.0819891        2.0471852
  9097.4388        1.0752224        2.0346259
  9099.4498        1.0698607        2.0360532
  9101.6580        1.0656513        2.0501784
  9103.8065        1.0631420        2.0724649
  9106.0249        1.0623743        2.0969482
  9108.2470        1.0634359        2.1186882
  9110.4801        1.0663031        2.1341044
  9112.7465        1.0701482        2.1420394
  9114.9989        1.0735188        2.1434104
  9117.3016        1.0754360        2.1424345
  9119.5894        1.0761114        2.1473236
  9121.9133        1.0760966        2.1649430
  9124.2842        1.0757872        2.1979458
  9126.6563        1.0754598        2.2381434
  9129.0386        1.0751602        2.2666604
  9131.4609        1.0749023        2.2765260
  9133.7811        1.0750883        2.2712413
  9136.2464        1.0756144        2.2599351
  9138.7239        1.0767514        2.2425052
  9141.1388        1.0774388        2.2187014
  9143.6604        1.0767185        2.1862557
  9146.1546        1.0747224        2.1484678
  9148.7042        1.0717342        2.1067353
  9151.1462        1.0684189        2.0653901
  9153.7213        1.0649430        2.0254418
  9156.3069        1.0616465        1.9963586
  9158.9229        1.0586572        1.9842532
  9161.5187        1.0562630        1.9934615
  9164.0862        1.0546466        2.0194058
  9166.7421        1.0534957        2.0540018
  9169.4032        1.0525758        2.0859212
  9172.1474        1.0515166        2.1083559
  9174.8153        1.0504437        2.1191654
  9177.5392        1.0493759        2.1207827
  9180.2440        1.0483584        2.1164712
  9183.0593        1.0471430        2.1108077
  9185.8419        1.0457459        2.1078274
  9188.6908        1.0439627        2.1056189
  9191.4878        1.0420564        2.1013227
  9194.3713        1.0398740        2.0951436
  9197.2293        1.0375287        2.0939188
  9200.1857        1.0348700        2.1052934
  9203.1094        1.0321705        2.1280232
  9206.0889        1.0292887        2.1497736
  9209.0540        1.0262984        2.1596356
  9212.1042        1.0231936        2.1596181
  9215.1043        1.0202559        2.1538570
  9218.1870        1.0174469        2.1420235
  9221.2470        1.0150254        2.1238087
  9224.3862        1.0129431        2.0991039
  9227.4624        1.0112712        2.0724582
  9230.5894        1.0097215        2.0474506
  9233.6845        1.0082448        2.0271901
  9236.8351        1.0069414        2.0144417
  9239.9962        1.0058581        2.0106012
  9243.2654        1.0049418        2.0129735
  9246.4927        1.0039260        2.0158927
  9249.6781        1.0028491        2.0168913
  9252.8952        1.0016211        2.0178427
  9256.0796        1.0003293        2.0198948
  9259.3844       0.99889302        2.0225010
  9262.6649       0.99735860        2.0269923
  9265.9625       0.99579590        2.0330746
  9269.2098       0.99409341        2.0388079
  9272.5502       0.99217274        2.0434127
  9275.9089       0.99019633        2.0464105
  9279.2997       0.98823810        2.0477418
  9282.6495       0.98658292        2.0461234
  9286.0621       0.98328033        2.0531296
  9289.5740       0.98077654        2.0547817
  9292.9742       0.97856291        2.0559170
  9296.4598       0.97631163        2.0553643
  9300.0255       0.97397808        2.0514430
  9303.5529       0.97169787        2.0429017
  9307.1465       0.96944706        2.0325533
  9310.7094       0.96706211        2.0218065
  9314.2582       0.96476211        2.0109635
  9317.8865       0.96244605        2.0017815
  9321.4794       0.96017955        1.9960876
  9325.1435       0.95795704        1.9937274
  9328.7345       0.95580378        1.9913164
  9332.3922       0.95363323        1.9862714
  9336.0999       0.95146115        1.9785059
  9339.7325       0.94936679        1.9689902
  9343.4876       0.94726332        1.9628119
  9347.1590       0.94508771        1.9621231
  9350.9060       0.94293450        1.9631800
  9354.5929       0.94077915        1.9631617
  9358.4046       0.93854054        1.9635729
  9362.2100       0.93626459        1.9646479
  9366.0630       0.93403345        1.9657100
  9369.9164       0.93178625        1.9667547
  9373.8717       0.92957433        1.9679005
  9377.7374       0.92743530        1.9686405
  9381.6946       0.92530547        1.9695179
  9385.6382       0.92322916        1.9694200
  9389.5081       0.92121209        1.9687668
  9393.5231       0.91916417        1.9679146
  9397.4302       0.91716250        1.9660348
  9401.3863       0.91517813        1.9628515
  9405.4022       0.91315823        1.9576143
  9409.3719       0.91111279        1.9511177
  9413.3985       0.90914147        1.9436169
  9417.3656       0.90713114        1.9369755
  9421.3782       0.90512237        1.9318876
  9425.4384       0.90310994        1.9284737
  9429.4609       0.90106812        1.9262923
  9433.5532       0.89897034        1.9241123
  9437.6731       0.89684502        1.9214405
  9441.7948       0.89464155        1.9181172
  9445.9635       0.89240981        1.9137635
  9450.1745       0.89011981        1.9087481
  9454.3555       0.88782961        1.9042818
  9458.5433       0.88578811        1.8986781
  9462.7870       0.88308278        1.8985599
  9467.0723       0.88075136        1.8959668
  9471.3229       0.87836690        1.8931735
  9475.5580       0.87600474        1.8913359
  9479.9066       0.87360763        1.8903339
  9484.3320       0.87121348        1.8893350
  9488.7180       0.86880215        1.8895502
  9493.0633       0.86644555        1.8894603
  9497.4702       0.86410690        1.8892261
  9501.9095       0.86175183        1.8889338
  9506.3930       0.85945503        1.8881616
  9510.8867       0.85715744        1.8862827
  9515.3975       0.85489360        1.8831429
  9519.8784       0.85264070        1.8787566
  9524.3685       0.85041902        1.8734573
  9528.9061       0.84809471        1.8683942
  9533.4893       0.84596609        1.8634658
  9538.0966       0.84476143        1.8567678
  9542.7596       0.84138911        1.8568755
  9547.4587       0.83911738        1.8536101
  9552.1281       0.83687883        1.8506601
  9556.7943       0.83465399        1.8479558
  9561.4859       0.83240013        1.8450286
  9566.1921       0.83009917        1.8417195
  9570.8990       0.82784033        1.8387878
  9575.6176       0.82558611        1.8355857
  9580.3529       0.82334504        1.8324060
  9585.0662       0.82108990        1.8292217
  9589.7971       0.81882863        1.8263793
  9594.5338       0.81656918        1.8240931
  9599.3111       0.81431942        1.8217914
  9604.1490       0.81202846        1.8196207
  9609.0029       0.80977548        1.8175416
  9613.8538       0.80759865        1.8155220
  9618.7406       0.80521590        1.8135310
  9623.6316       0.80291518        1.8117152
  9628.6167       0.80056128        1.8097138
  9633.6041       0.79823106        1.8073382
  9638.5868       0.79587966        1.8048814
  9643.5928       0.79352813        1.8022429
  9648.6654       0.79111331        1.7991011
  9653.7294       0.78868833        1.7961206
  9658.8301       0.78629528        1.7928912
  9663.8979       0.78405701        1.7895201
  9668.9904       0.78167806        1.7865205
  9674.1217       0.77921041        1.7834513
  9679.2394       0.77676933        1.7803895
  9684.3059       0.77438980        1.7773981
  9689.3778       0.77204603        1.7743208
  9694.5048       0.76968265        1.7710666
  9699.7055       0.76730552        1.7682135
  9704.9963       0.76493658        1.7651559
  9710.2605       0.76254816        1.7622759
  9715.5294       0.76020184        1.7592759
  9720.8522       0.75782583        1.7563752
  9726.1758       0.75547519        1.7533811
  9731.4931       0.75313464        1.7508682
  9736.8389       0.75078313        1.7480916
  9742.1794       0.74844598        1.7456776
  9747.5967       0.74610395        1.7432162
  9752.9421       0.74378521        1.7408385
  9758.3408       0.74141183        1.7385616
  9763.8445       0.73907708        1.7359428
  9769.2473       0.73677539        1.7334362
  9774.6603       0.73439224        1.7306082
  9780.1425       0.73203511        1.7278149
  9785.6496       0.72970519        1.7249605
  9791.1257       0.72734350        1.7223741
  9796.7491       0.72489740        1.7194990
  9802.3615       0.72255307        1.7165393
  9807.8963       0.72017223        1.7138361
  9813.5332       0.71776826        1.7108616
  9819.1371       0.71541658        1.7077764
  9824.8268       0.71301972        1.7047382
  9830.6173       0.71054982        1.7016442
  9836.3572       0.70809849        1.6983723
