# XDI/1.0 Demeter/0.9.26
# Beamline.name: BM08-LISA
# Column.1: energy eV
# Column.2: mutrans
# Element.edge: K
# Element.symbol: Nb
# Facility.name: ESRF
# Facility.xray_source: Bending magnet
# Mono.d_spacing: 1.637039
# Mono.name: Si(311)
# Mono.notes: LNT cooled
# Sample.formula: Nb
# Sample.name: Nb metal foil
# Scan.start_time: 2023-06-17T21:18:03
# ///
# room temperature
#------------------------
#   energy  mutrans       
  18785.591       0.79341740E-01   
  18790.469       0.78848622E-01   
  18795.314       0.78418200E-01   
  18800.309       0.78003052E-01   
  18805.139       0.77833539E-01   
  18810.165       0.77214729E-01   
  18815.109       0.76809135E-01   
  18820.112       0.76542958E-01   
  18824.947       0.76209936E-01   
  18830.056       0.75957958E-01   
  18834.876       0.75383398E-01   
  18839.954       0.75213137E-01   
  18844.863       0.74826827E-01   
  18849.745       0.74627461E-01   
  18854.739       0.74285506E-01   
  18859.554       0.74036540E-01   
  18864.696       0.73885491E-01   
  18869.550       0.73293154E-01   
  18874.626       0.73281228E-01   
  18879.547       0.73045085E-01   
  18884.594       0.72650670E-01   
  18889.543       0.72690051E-01   
  18894.662       0.73034418E-01   
  18899.774       0.72921342E-01   
  18904.858       0.72517986E-01   
  18910.015       0.72533550E-01   
  18914.952       0.72706176E-01   
  18920.186       0.73103856E-01   
  18925.210       0.73314592E-01   
  18930.312       0.73792453E-01   
  18935.401       0.74472424E-01   
  18940.339       0.75533144E-01   
  18945.595       0.76997289E-01   
  18950.469       0.78588788E-01   
  18955.669       0.81417158E-01   
  18956.154       0.81630626E-01   
  18956.640       0.81844126E-01   
  18957.099       0.82316972E-01   
  18957.671       0.82486260E-01   
  18958.247       0.83073201E-01   
  18958.765       0.83326085E-01   
  18959.178       0.83724811E-01   
  18959.643       0.84168334E-01   
  18960.136       0.84631838E-01   
  18960.672       0.85037170E-01   
  18961.177       0.85348925E-01   
  18961.742       0.85965324E-01   
  18962.243       0.86415847E-01   
  18962.714       0.87070301E-01   
  18963.130       0.87372007E-01   
  18963.654       0.87973955E-01   
  18964.228       0.88663931E-01   
  18964.738       0.89353328E-01   
  18965.272       0.89924181E-01   
  18965.759       0.90560453E-01   
  18966.240       0.91200327E-01   
  18966.691       0.92107817E-01   
  18967.258       0.92811772E-01   
  18967.857       0.93604836E-01   
  18968.349       0.94314257E-01   
  18968.852       0.95441679E-01   
  18969.334       0.96338661E-01   
  18969.835       0.97390995E-01   
  18970.313       0.98345083E-01   
  18970.902       0.99588894E-01   
  18971.463       0.10089461       
  18971.961       0.10216979       
  18972.371       0.10341196       
  18972.847       0.10469678       
  18973.359       0.10657608       
  18973.840       0.10795878       
  18974.420       0.10987938       
  18974.950       0.11186227       
  18975.432       0.11371917       
  18975.838       0.11587238       
  18976.334       0.11852136       
  18976.875       0.12129315       
  18977.381       0.12392781       
  18977.955       0.12762773       
  18978.459       0.13115383       
  18978.933       0.13541673       
  18979.362       0.13979121       
  18979.888       0.14514043       
  18980.470       0.15128955       
  18980.985       0.15728524       
  18981.524       0.16565534       
  18982.010       0.17552213       
  18982.486       0.18693246       
  18982.925       0.19901574       
  18983.483       0.21583752       
  18984.062       0.23662011       
  18984.535       0.25821928       
  18985.027       0.28995281       
  18985.491       0.32947655       
  18985.971       0.37835056       
  18986.423       0.42786875       
  18986.987       0.48797803       
  18987.554       0.54449438       
  18988.004       0.58488408       
  18988.483       0.61765304       
  18988.949       0.63768843       
  18989.382       0.64905611       
  18989.924       0.65990419       
  18990.508       0.67185516       
  18991.062       0.68743922       
  18991.496       0.70446186       
  18991.972       0.72737635       
  18992.463       0.75292068       
  18992.931       0.77754498       
  18993.516       0.80813023       
  18994.104       0.84081436       
  18994.630       0.87413133       
  18995.050       0.90363637       
  18995.528       0.93780711       
  18996.042       0.97277363       
  18996.531        1.0058070       
  18997.113        1.0467384       
  18997.651        1.0906994       
  18998.075        1.1321235       
  18998.540        1.1824626       
  18999.018        1.2324932       
  18999.538        1.2803593       
  19000.029        1.3184135       
  19000.596        1.3572937       
  19001.105        1.3890794       
  19001.515        1.4110975       
  19001.982        1.4308744       
  19002.479        1.4435503       
  19002.950        1.4489428       
  19003.531        1.4486069       
  19004.088        1.4410893       
  19004.522        1.4297248       
  19004.995        1.4117373       
  19005.483        1.3913917       
  19006.015        1.3712786       
  19006.523        1.3552659       
  19007.108        1.3408151       
  19007.636        1.3307108       
  19008.061        1.3257929       
  19008.536        1.3245479       
  19009.040        1.3263761       
  19009.519        1.3303401       
  19010.101        1.3366432       
  19010.643        1.3441346       
  19011.070        1.3507345       
  19011.535        1.3577560       
  19012.011        1.3640475       
  19012.527        1.3691975       
  19013.017        1.3723198       
  19013.588        1.3742831       
  19014.111        1.3745208       
  19014.523        1.3745053       
  19014.992        1.3733083       
  19015.489        1.3721620       
  19015.958        1.3704453       
  19017.189        1.3687177       
  19018.222        1.3721600       
  19019.352        1.3820447       
  19020.575        1.3965709       
  19021.670        1.4128651       
  19022.898        1.4277170       
  19024.105        1.4432464       
  19025.240        1.4599623       
  19026.558        1.4753325       
  19027.745        1.4857900       
  19029.007        1.4871984       
  19030.352        1.4759977       
  19031.575        1.4531939       
  19033.070        1.4237184       
  19034.369        1.3978081       
  19035.756        1.3778692       
  19037.198        1.3646555       
  19038.538        1.3578785       
  19040.082        1.3573799       
  19041.408        1.3615567       
  19042.950        1.3682949       
  19044.397        1.3763232       
  19045.991        1.3817920       
  19047.506        1.3828579       
  19049.117        1.3798639       
  19050.621        1.3742053       
  19052.147        1.3680959       
  19053.808        1.3614922       
  19055.314        1.3559334       
  19057.012        1.3525397       
  19058.696        1.3538718       
  19060.406        1.3617644       
  19062.107        1.3760088       
  19063.810        1.3920812       
  19065.489        1.4057787       
  19067.215        1.4149221       
  19069.020        1.4160975       
  19070.738        1.4086058       
  19072.708        1.3933361       
  19074.477        1.3749285       
  19076.437        1.3590726       
  19078.169        1.3499320       
  19080.114        1.3474039       
  19082.009        1.3484447       
  19083.888        1.3514586       
  19086.007        1.3526372       
  19087.846        1.3524541       
  19089.910        1.3525331       
  19091.918        1.3531067       
  19093.818        1.3538466       
  19095.951        1.3577169       
  19097.996        1.3642484       
  19100.109        1.3719090       
  19102.314        1.3796827       
  19104.288        1.3851443       
  19106.436        1.3869578       
  19108.613        1.3838573       
  19110.716        1.3765460       
  19113.018        1.3671943       
  19115.319        1.3563225       
  19117.380        1.3445244       
  19119.671        1.3328648       
  19122.006        1.3240275       
  19124.187        1.3189667       
  19126.600        1.3156821       
  19129.032        1.3129319       
  19131.334        1.3111615       
  19133.655        1.3120413       
  19136.122        1.3156159       
  19138.590        1.3202139       
  19141.010        1.3243819       
  19143.384        1.3274287       
  19145.878        1.3291965       
  19148.362        1.3288857       
  19150.800        1.3279536       
  19153.348        1.3298167       
  19155.929        1.3362426       
  19158.406        1.3475592       
  19160.855        1.3596332       
  19163.422        1.3677619       
  19166.168        1.3706659       
  19168.828        1.3671847       
  19171.396        1.3563183       
  19173.928        1.3408833       
  19176.640        1.3210819       
  19179.384        1.3011178       
  19182.167        1.2827311       
  19184.887        1.2707654       
  19187.496        1.2669662       
  19190.273        1.2692205       
  19193.133        1.2733340       
  19196.040        1.2764104       
  19198.850        1.2776725       
  19201.701        1.2793640       
  19204.646        1.2846516       
  19207.527        1.2914821       
  19210.432        1.2989840       
  19213.359        1.3075092       
  19216.354        1.3147640       
  19219.474        1.3218219       
  19222.559        1.3260964       
  19225.577        1.3274123       
  19228.613        1.3279913       
  19231.757        1.3280615       
  19234.897        1.3257988       
  19237.940        1.3214474       
  19240.972        1.3158160       
  19244.153        1.3081261       
  19247.400        1.2974002       
  19250.557        1.2865753       
  19253.756        1.2775197       
  19257.006        1.2702992       
  19260.331        1.2636809       
  19263.603        1.2585192       
  19266.905        1.2565258       
  19270.252        1.2589655       
  19273.688        1.2646397       
  19277.053        1.2711633       
  19280.414        1.2767777       
  19283.800        1.2822541       
  19287.260        1.2878146       
  19290.751        1.2916708       
  19294.174        1.2940372       
  19297.655        1.2959992       
  19301.222        1.2962033       
  19304.718        1.2947587       
  19308.214        1.2915759       
  19311.782        1.2880573       
  19315.506        1.2853579       
  19319.054        1.2833349       
  19322.628        1.2806356       
  19326.257        1.2765108       
  19329.971        1.2700743       
  19333.535        1.2650754       
  19337.145        1.2618329       
  19340.925        1.2593741       
  19344.650        1.2575801       
  19348.365        1.2553177       
  19352.137        1.2541452       
  19356.005        1.2527416       
  19359.823        1.2525214       
  19363.489        1.2552261       
  19367.282        1.2571543       
  19371.148        1.2578084       
  19374.876        1.2574344       
  19378.730        1.2569637       
  19382.754        1.2561883       
  19386.720        1.2559499       
  19390.667        1.2565422       
  19394.640        1.2576752       
  19398.650        1.2589815       
  19402.593        1.2589413       
  19406.705        1.2579272       
  19410.879        1.2562637       
  19414.891        1.2543722       
  19418.851        1.2519585       
  19423.024        1.2486267       
  19427.289        1.2452177       
  19431.412        1.2421742       
  19435.505        1.2400542       
  19439.739        1.2386309       
  19443.979        1.2376714       
  19448.276        1.2370899       
  19452.522        1.2362247       
  19456.746        1.2352609       
  19461.053        1.2344503       
  19465.485        1.2333839       
  19469.744        1.2320302       
  19474.021        1.2312496       
  19478.527        1.2305059       
  19483.003        1.2303972       
  19487.348        1.2304361       
  19491.832        1.2291822       
  19496.482        1.2282493       
  19500.833        1.2275287       
  19505.373        1.2275554       
  19510.036        1.2274276       
  19514.458        1.2278072       
  19519.015        1.2287445       
  19523.728        1.2279946       
  19528.227        1.2268670       
  19532.709        1.2245411       
  19537.575        1.2213443       
  19542.066        1.2185625       
  19546.716        1.2152922       
  19551.561        1.2122988       
  19556.084        1.2105102       
  19560.728        1.2094936       
  19565.611        1.2082095       
  19570.134        1.2066575       
  19575.010        1.2050010       
  19579.815        1.2044678       
  19584.408        1.2040232       
  19589.311        1.2039244       
  19594.076        1.2035737       
  19598.849        1.2032569       
  19603.701        1.2025633       
  19608.412        1.2015463       
  19613.236        1.2009291       
  19618.084        1.2003200       
  19622.939        1.1999180       
  19627.918        1.1988599       
  19632.781        1.1981229       
  19637.780        1.1967866       
  19642.645        1.1951799       
  19647.692        1.1930799       
  19652.723        1.1922700       
  19657.574        1.1901657       
  19662.696        1.1879510       
  19667.549        1.1857623       
  19672.639        1.1840184       
  19677.655        1.1823769       
  19682.604        1.1806133       
  19687.774        1.1792314       
  19692.778        1.1767319       
  19697.954        1.1763118       
  19702.990        1.1754643       
  19708.250        1.1747876       
  19713.230        1.1745672       
  19718.575        1.1740421       
  19723.705        1.1734806       
  19729.034        1.1724722       
  19734.235        1.1712408       
  19739.552        1.1706986       
  19744.773        1.1690539       
  19750.071        1.1682082       
  19755.296        1.1666763       
  19760.629        1.1657628       
  19765.805        1.1640808       
  19771.281        1.1626960       
  19776.534        1.1608007       
  19781.983        1.1591094       
  19787.342        1.1575821       
  19792.776        1.1556266       
  19798.046        1.1537956       
  19803.626        1.1523685       
  19808.926        1.1506496       
  19814.579        1.1493097       
  19819.914        1.1483397       
  19825.578        1.1470281       
  19831.123        1.1459960       
  19836.631        1.1449099       
  19842.289        1.1438002       
  19847.702        1.1399187       
