# XDI/1.0 Demeter/0.9.26
# Beamline.name: BM08-LISA
# Column.1: energy eV
# Column.2: mutrans
# Element.edge: K
# Element.symbol: Ti
# Facility.name: ESRF
# Facility.xray_source: Bending magnet
# Mono.d_spacing: 1.637039
# Mono.name: Si(311)
# Mono.notes: LNT cooled
# Sample.formula: Ti
# Sample.name: Ti metal foil
# Scan.start_time: 2017-06-21T15:01:17
# ///
# room temperature
#------------------------
#   energy  mutrans        
  4907.5811      -0.58540578      
  4912.5774      -0.59071488      
  4917.5757      -0.59678958      
  4922.5495      -0.60257639      
  4927.5532      -0.60783842      
  4932.5428      -0.61363723      
  4937.5283      -0.61887750      
  4942.4838      -0.62415690      
  4947.4461      -0.62848028      
  4947.9337      -0.62903655      
  4948.4131      -0.62964322      
  4948.9040      -0.62989772      
  4949.3991      -0.63038417      
  4949.8899      -0.63059500      
  4950.3863      -0.63102487      
  4950.8778      -0.63139463      
  4951.3701      -0.63187054      
  4951.8735      -0.63176331      
  4952.3692      -0.63258398      
  4952.8821      -0.63271264      
  4953.3823      -0.63305268      
  4953.8896      -0.63342906      
  4954.3822      -0.63356214      
  4954.8774      -0.63396923      
  4955.3821      -0.63416346      
  4955.8802      -0.63470914      
  4956.3815      -0.63450180      
  4956.8746      -0.63503152      
  4957.3787      -0.63496441      
  4957.8757      -0.63491719      
  4958.3707      -0.63519334      
  4958.8764      -0.63469131      
  4959.3813      -0.63462617      
  4959.8946      -0.63481674      
  4960.3967      -0.63434533      
  4960.9066      -0.63359756      
  4961.4047      -0.63328794      
  4961.9016      -0.63231480      
  4962.4035      -0.63156972      
  4962.8995      -0.62959769      
  4963.4040      -0.62795143      
  4963.8983      -0.62535311      
  4964.3931      -0.62170936      
  4964.8905      -0.61685335      
  4965.3868      -0.60772478      
  4965.8948      -0.59457708      
  4966.3923      -0.56767400      
  4966.8962      -0.50184410      
  4967.3986      -0.31634610      
  4967.8944      -0.78337110E-01  
  4968.3888      -0.51520721E-01  
  4968.8854      -0.16152277      
  4969.3843      -0.24975716      
  4969.8978      -0.26954272      
  4970.3934      -0.24639268      
  4970.8971      -0.19944373      
  4971.3947      -0.14939244      
  4971.8901      -0.10981643      
  4972.3979      -0.84281058E-01  
  4972.8961      -0.71249079E-01  
  4973.4060      -0.62383264E-01  
  4973.9068      -0.39921566E-01  
  4974.4092       0.33855741E-02  
  4974.9166       0.61289543E-01  
  4975.4183       0.12371860      
  4975.9328       0.18610134      
  4976.4393       0.24414853      
  4976.9567       0.29880282      
  4977.4630       0.35252730      
  4977.9658       0.40585961      
  4978.4757       0.46092616      
  4978.9775       0.51103238      
  4979.4897       0.55024930      
  4979.9987       0.59744567      
  4980.4980       0.62633065      
  4981.0005       0.65212423      
  4981.4956       0.67272380      
  4981.9979       0.68831303      
  4982.4991       0.70136723      
  4983.0001       0.71213155      
  4983.5072       0.72149647      
  4984.0078       0.73082037      
  4984.5153       0.73976922      
  4985.0249       0.74924064      
  4985.5290       0.75649999      
  4986.0468       0.75927795      
  4986.5540       0.75759796      
  4987.0746       0.74943481      
  4987.5809       0.73732969      
  4988.1201       0.72195589      
  4988.6510       0.70611091      
  4989.1952       0.69353017      
  4989.7422       0.68506492      
  4990.2826       0.68005022      
  4990.8511       0.67826603      
  4991.4175       0.67650092      
  4992.0004       0.67512720      
  4992.5868       0.67291845      
  4993.1846       0.66971247      
  4993.7810       0.66552788      
  4994.3959       0.66140301      
  4995.0056       0.65694698      
  4995.6223       0.65495411      
  4996.2497       0.65675746      
  4996.8768       0.66291900      
  4997.5083       0.67326256      
  4998.1538       0.68890438      
  4998.7991       0.70895192      
  4999.4447       0.73192688      
  5000.1186       0.75657868      
  5000.7809       0.77713950      
  5001.4629       0.79293081      
  5002.1346       0.80246441      
  5002.8245       0.80620402      
  5003.5152       0.80496877      
  5004.2257       0.80204027      
  5004.9445       0.79938920      
  5005.6656       0.79667982      
  5006.3808       0.79329334      
  5007.1132       0.78692985      
  5007.8507       0.77570786      
  5008.5905       0.75867706      
  5009.3507       0.73750277      
  5010.1173       0.71349768      
  5010.8802       0.69011371      
  5011.6542       0.66870557      
  5012.4262       0.65250717      
  5013.2160       0.64022880      
  5014.0048       0.63156670      
  5014.7985       0.62434643      
  5015.6007       0.61756752      
  5016.4046       0.61100028      
  5017.2338       0.60316236      
  5018.0417       0.59496459      
  5018.8777       0.58743160      
  5019.7164       0.58015137      
  5020.5677       0.57189599      
  5021.4147       0.56494453      
  5022.2667       0.55916735      
  5023.1234       0.55314602      
  5023.9977       0.54868407      
  5024.8772       0.54485872      
  5025.7666       0.54277543      
  5026.6633       0.54271214      
  5027.5549       0.54492226      
  5028.4616       0.54762722      
  5029.3746       0.55126800      
  5030.2951       0.55594816      
  5031.2092       0.56148832      
  5032.1295       0.56999594      
  5033.0639       0.58246983      
  5034.0123       0.59760314      
  5034.9716       0.61585043      
  5035.9362       0.63536179      
  5036.9116       0.65406047      
  5037.9060       0.67176726      
  5038.8872       0.68672880      
  5039.8772       0.69867083      
  5040.8726       0.70749569      
  5041.8739       0.71097944      
  5042.8815       0.71072218      
  5043.9142       0.70748830      
  5044.9540       0.70242683      
  5045.9873       0.69432597      
  5047.0285       0.68442621      
  5048.0768       0.67219436      
  5049.1273       0.65804387      
  5050.1910       0.64117050      
  5051.2639       0.62324066      
  5052.3336       0.60448792      
  5053.4209       0.58387137      
  5054.5039       0.56452839      
  5055.6031       0.54617690      
  5056.6924       0.53125990      
  5057.7991       0.52016876      
  5058.9221       0.51243490      
  5060.0523       0.50727685      
  5061.2088       0.50508381      
  5062.3712       0.50489608      
  5063.5383       0.50317432      
  5064.7076       0.49940451      
  5065.8682       0.49438911      
  5067.0454       0.48786798      
  5068.2173       0.48035960      
  5069.4148       0.47401120      
  5070.5967       0.46872408      
  5071.8199       0.46383242      
  5073.0384       0.45955373      
  5074.2685       0.45608118      
  5075.4800       0.45561671      
  5076.6932       0.45830663      
  5077.9329       0.46271252      
  5079.1799       0.47048016      
  5080.4278       0.47998177      
  5081.6770       0.49158253      
  5082.9420       0.50511050      
  5084.2006       0.51940163      
  5085.4606       0.53494622      
  5086.7257       0.55001754      
  5088.0114       0.56460030      
  5089.2838       0.57905259      
  5090.5728       0.59187770      
  5091.8728       0.60113790      
  5093.1990       0.60561303      
  5094.4988       0.60433127      
  5095.8279       0.59648140      
  5097.1747       0.58274874      
  5098.5119       0.56432297      
  5099.8390       0.54178254      
  5101.1860       0.51749394      
  5102.5451       0.49248675      
  5103.8931       0.46800782      
  5105.2611       0.44816153      
  5106.6213       0.43104555      
  5108.0000       0.41963251      
  5109.3951       0.41290047      
  5110.7645       0.40975285      
  5112.1708       0.40910695      
  5113.5704       0.40775798      
  5114.9894       0.40602876      
  5116.4110       0.40511549      
  5117.8414       0.40367670      
  5119.2588       0.40186847      
  5120.6801       0.40148193      
  5122.1162       0.39888132      
  5123.5653       0.39634212      
  5125.0324       0.39330625      
  5126.5193       0.39001684      
  5128.0020       0.38501673      
  5129.4826       0.38060525      
  5130.9632       0.37670892      
  5132.4659       0.37386917      
  5133.9947       0.37200393      
  5135.5077       0.37107982      
  5137.0270       0.37175081      
  5138.5508       0.37410194      
  5140.0982       0.37762576      
  5141.6341       0.38192843      
  5143.1874       0.38721080      
  5144.7441       0.39281795      
  5146.2842       0.39820530      
  5147.8528       0.40514399      
  5149.4269       0.41010373      
  5151.0312       0.41421081      
  5152.6473       0.41527511      
  5154.2683       0.41253424      
  5155.8916       0.40791512      
  5157.5086       0.40018759      
  5159.1476       0.39120748      
  5160.7732       0.38187582      
  5162.4338       0.37221073      
  5164.0935       0.36301872      
  5165.7727       0.35481361      
  5167.4164       0.34868476      
  5169.0660       0.34232485      
  5170.7624       0.33568649      
  5172.4411       0.32804283      
  5174.1357       0.31892635      
  5175.8322       0.30987694      
  5177.5045       0.30051073      
  5179.2054       0.29143973      
  5180.8992       0.28473632      
  5182.6067       0.27874878      
  5184.3236       0.27466911      
  5186.0510       0.27132821      
  5187.7719       0.26961936      
  5189.5288       0.26763176      
  5191.2870       0.26560749      
  5193.0335       0.26456567      
  5194.7868       0.26314315      
  5196.5701       0.26215950      
  5198.3259       0.26130665      
  5200.0877       0.26085920      
  5201.8749       0.26073214      
  5203.6444       0.26066546      
  5205.4401       0.26074079      
  5207.2491       0.26180784      
  5209.0597       0.26274593      
  5210.8728       0.26354976      
  5212.6976       0.26438248      
  5214.4880       0.26386649      
  5216.3196       0.26288122      
  5218.1541       0.26043459      
  5220.0100       0.25693346      
  5221.8902       0.25270876      
  5223.7544       0.24863265      
  5225.6217       0.24463588      
  5227.5176       0.24122429      
  5229.4183       0.23784448      
  5231.3103       0.23490622      
  5233.1989       0.23144065      
  5235.1242       0.22749176      
  5237.0319       0.22261141      
  5238.9781       0.21735653      
  5240.8964       0.21129825      
  5242.8197       0.20592258      
  5244.7608       0.20039353      
  5246.7335       0.19443972      
  5248.7242       0.18833270      
  5250.7181       0.18182203      
  5252.7092       0.17696454      
  5254.6990       0.17095640      
  5256.7016       0.16592179      
  5258.7343       0.16086958      
  5260.7573       0.15623601      
  5262.7951       0.15240869      
  5264.7949       0.14925313      
  5266.8297       0.14602594      
  5268.8834       0.14336997      
  5270.9224       0.14169147      
  5272.9751       0.14037830      
  5275.0161       0.13918616      
  5277.0756       0.13803458      
  5279.1241       0.13679556      
  5281.1843       0.13591746      
  5283.2673       0.13444518      
  5285.3407       0.13280189      
  5287.4547       0.13203358      
  5289.5542       0.12965929      
  5291.6463       0.12695842      
  5293.7642       0.12458219      
  5295.8855       0.12111417      
  5297.9966       0.11680596      
  5300.1227       0.11288277      
  5302.2354       0.10973818      
  5304.3602       0.10526807      
  5306.5247       0.10238974      
  5308.6792       0.99458310E-01  
  5310.8346       0.96596823E-01  
  5312.9682       0.93124825E-01  
  5315.1129       0.89972974E-01  
  5317.2911       0.86656589E-01  
  5319.4798       0.82933388E-01  
  5321.6936       0.79185461E-01  
  5323.8925       0.75597010E-01  
  5326.0909       0.71722238E-01  
  5328.3304       0.67922953E-01  
  5330.5679       0.64240417E-01  
  5332.7839       0.59443543E-01  
  5335.0271       0.55064235E-01  
  5337.2755       0.51184195E-01  
  5339.5454       0.46238251E-01  
  5341.8080       0.42304281E-01  
  5344.0592       0.37070487E-01  
  5346.3207       0.32605298E-01  
  5348.6238       0.28384198E-01  
  5350.9338       0.23849267E-01  
  5353.2597       0.19995673E-01  
  5355.5654       0.16805022E-01  
  5357.8996       0.13641421E-01  
  5360.2562       0.11234792E-01  
  5362.6293       0.87562150E-02  
  5364.9870       0.68686909E-02  
  5367.3094       0.40985785E-02  
  5369.6633       0.28623262E-02  
  5372.0357       0.62070680E-03  
  5374.4084      -0.12383264E-02  
  5376.7762      -0.37599645E-02  
  5379.1304      -0.63050092E-02  
  5381.5093      -0.94400890E-02  
  5383.8674      -0.12462564E-01  
  5386.2666      -0.15920123E-01  
  5388.6622      -0.19466228E-01  
  5391.0752      -0.23119244E-01  
  5393.4896      -0.26693789E-01  
  5395.8948      -0.30177857E-01  
  5398.3285      -0.33699273E-01  
  5400.7692      -0.37051599E-01  
  5403.1991      -0.40208442E-01  
  5405.6285      -0.43833515E-01  
  5408.0507      -0.47275760E-01  
  5410.5138      -0.51139627E-01  
  5412.9769      -0.54744209E-01  
  5415.4352      -0.58023764E-01  
  5417.8927      -0.61742966E-01  
  5420.3548      -0.64997613E-01  
  5422.8262      -0.68822350E-01  
  5425.3386      -0.73171464E-01  
  5427.8485      -0.76939202E-01  
  5430.3611      -0.80961962E-01  
  5432.8856      -0.84423873E-01  
  5435.4255      -0.88135084E-01  
  5437.9548      -0.92063872E-01  
  5440.4893      -0.95783752E-01  
  5443.0411      -0.98819856E-01  
  5445.6020      -0.10281565      
  5448.1818      -0.10648223      
  5450.7342      -0.10951985      
  5453.2868      -0.11238673      
  5455.9014      -0.11590842      
  5458.5116      -0.11903440      
  5461.1254      -0.12216279      
  5463.7478      -0.12508550      
  5466.3705      -0.12852996      
  5469.0471      -0.13144121      
  5471.7111      -0.13496458      
  5474.3551      -0.13806864      
  5476.9841      -0.14094261      
  5479.6691      -0.14409483      
  5482.3214      -0.14714506      
  5484.9848      -0.15074033      
  5487.6469      -0.15354503      
  5490.3270      -0.15670176      
  5492.9820      -0.15990808      
  5495.6555      -0.16448804      
  5498.3676      -0.16715945      
  5501.0827      -0.17081782      
  5503.7825      -0.17384057      
  5506.4700      -0.17689605      
  5509.1890      -0.18042920      
  5511.9328      -0.18392884      
  5514.6555      -0.18694330      
  5517.3906      -0.19046996      
